Folder: Raman-Peak-Fitting-Model/Examples_raman_of_carbon

Note: README.md
# **Raman Fitting Model**

# About the Project: ðŸ“š
The Raman Fitting Library is a comprehensive software package designed to facilitate the analysis and fitting of Raman spectra. Raman spectroscopy is a powerful technique used in various scientific and industrial applications to study molecular vibrations and obtain structural information about materials.

The goal of the Raman Fitting Library is to provide researchers, scientists, and spectroscopy enthusiasts with a versatile and user-friendly toolset for analyzing Raman spectra. It offers a range of advanced algorithms and methods for spectral fitting, enabling accurate determination of peak positions, peak intensities, and other relevant parameters.

# Key Features
- ### Spectral Fitting:
    The library provides robust algorithms for fitting Raman spectra to various functional forms, such as Lorentzian, Gaussian, Voigt, and more. These functions can be combined to model complex spectral features accurately.

- ### Baseline Correction:
    Raman spectra often exhibit a baseline that can obscure the underlying peaks. The library includes sophisticated algorithms for baseline correction, allowing users to remove unwanted variations and enhance the visibility of spectral features.

- ### Peak Analysis:
    Accurate determination of peak positions and intensities is crucial in Raman spectroscopy. The library provides tools for peak identification, peak integration, and extraction of peak parameters, enabling comprehensive analysis of Raman spectra.

- ### Visualization:
    Visual representation of the fitted spectra and associated parameters greatly aids in the interpretation of Raman data. The library offers plotting functions for displaying the original spectra, fitted curves, residuals, and other relevant information.

# Setup / Installation: ðŸ’»

To install the dependencies and devDependencies for this project, you can run the following command in the terminal:

    pip install numpy pandas scipy lmfit matplotlib

# Usage:

To use this project, download or clone the repository. Then, you can run the following command in the terminal:
    
    python raman_fitting_model.py
    
This will start running the `raman_fitting_model.py` file.

You can go down to the main function in `raman_fitting_model.py` file and change the spectral file 1 and spectral file 2 name in the `spectral_files_handler()` function paramaters. Note that, spectral file 2 name is optional.

File: GC_633nm.txt
99.8194	21.6291
110.338	26.619
120.84	22.609
131.331	19.5989
141.805	14.5889
152.266	5.57886
162.712	12.5689
173.145	6.55887
183.563	5.54889
193.968	5.53893
204.357	14.529
214.733	17.519
225.095	10.5091
235.443	14.4992
245.778	15.4893
256.097	8.47944
266.404	9.46957
276.696	5.45972
286.974	2.44987
297.239	9.44004
307.49	3.43023
317.728	11.4204
327.951	8.41064
338.16	8.40086
348.357	10.3911
358.539	13.3813
368.707	17.3716
378.862	2.36189
389.004	7.35218
399.132	13.3425
409.246	10.3328
419.347	4.32312
429.434	11.3135
439.509	19.3038
449.57	8.29419
459.616	8.28456
469.65	13.275
479.671	13.2654
489.677	11.2558
499.671	10.2462
509.652	1.23666
519.619	2.22711
529.574	1.21758
539.515	2.20806
549.443	-1.80145
559.358	5.18906
569.258	7.17958
579.147	4.17011
589.022	6.16066
598.884	10.1512
608.734	7.14178
618.57	16.1324
628.394	-1.87704
638.204	7.11356
648.002	3.10418
657.787	5.09481
667.559	6.08546
677.318	5.07611
687.063	8.06678
696.797	7.05746
706.517	8.04815
716.225	2.03886
725.92	13.0296
735.603	6.0203
745.273	8.01104
754.93	10.0018
764.575	7.99256
774.207	0.983337
783.826	2.97413
793.434	14.9649
803.027	9.95574
812.61	5.94657
822.179	7.9374
831.735	6.92825
841.28	17.9191
850.813	13.91
860.333	14.9009
869.84	15.8918
879.334	11.8827
888.817	11.8736
898.288	13.8645
907.746	11.8555
917.192	9.84643
926.626	11.8374
936.048	2.82837
945.457	8.81936
954.855	20.8104
964.239	9.80138
973.613	12.7924
982.973	13.7834
992.322	8.77449
1001.66	20.7655
1010.98	13.7566
1020.3	22.7477
1029.6	20.7388
1038.89	28.7299
1048.16	25.721
1057.43	27.7121
1066.68	33.7033
1075.92	38.6944
1085.16	37.6856
1094.37	28.6768
1103.58	49.668
1112.77	51.6592
1121.96	71.6504
1131.13	69.6416
1140.29	72.6328
1149.43	76.6241
1158.57	87.6153
1167.69	94.6066
1176.81	87.5978
1185.91	93.5891
1195	106.58
1204.08	109.572
1213.14	122.563
1222.2	121.554
1231.24	141.546
1240.27	145.537
1249.29	165.528
1258.3	203.52
1267.3	251.511
1276.29	304.503
1285.26	397.494
1294.23	502.485
1303.18	692.477
1312.12	948.468
1321.05	1286.46
1329.97	1474.45
1338.88	1506.44
1347.77	1223.43
1356.66	924.426
1365.53	648.417
1374.39	472.409
1383.24	371.4
1392.09	265.392
1400.92	214.383
1409.73	181.375
1418.54	140.366
1427.34	131.358
1436.12	123.35
1444.9	105.341
1453.66	106.333
1462.41	102.324
1471.15	86.316
1479.88	96.3076
1488.6	97.2993
1497.31	101.291
1506.01	93.2826
1514.7	110.274
1523.38	119.266
1532.04	129.258
1540.7	146.249
1549.34	187.241
1557.97	238.233
1566.6	317.225
1575.21	376.216
1583.81	499.208
1592.4	590.2
1600.98	632.192
1609.55	612.183
1618.11	587.175
1626.66	498.167
1635.2	331.159
1643.72	203.151
1652.24	122.143
1660.75	85.1345
1669.24	48.1263
1677.73	42.1182
1686.2	35.1101
1694.67	25.102
1703.12	28.0939
1711.57	23.0858
1720	21.0777
1728.42	20.0697
1736.83	16.0616
1745.24	17.0536
1753.63	18.0455
1762.01	19.0375
1770.38	6.02948
1778.74	12.0215
1787.09	18.0135
1795.44	20.0055
1803.77	13.9975
1812.09	5.98954
1820.4	19.9816
1828.7	2.97364
1836.99	10.9657
1845.27	8.95777
1853.54	10.9499
1861.8	10.9419
1870.05	5.93404
1878.29	17.9262
1886.52	13.9183
1894.74	1.9104
1902.95	12.9025
1911.15	7.89469
1919.34	6.88684
1927.52	10.879
1935.69	7.87119
1943.85	10.8634
1952	14.8556
1960.15	3.84777
1968.28	9.83999
1976.4	7.83221
1984.51	12.8244
1992.61	6.81668
2000.7	7.80894
2008.78	6.8012
2016.86	7.79347
2024.92	8.78575
2032.97	5.77804
2041.02	2.77034
2049.05	7.76264
2057.08	-1.24504
2065.09	0.747288
2073.09	3.73962
2081.09	2.73196
2089.08	-0.275681
2097.05	1.71668
2105.02	0.709053
2112.98	7.70144
2120.92	5.69382
2128.86	5.68622
2136.79	8.67863
2144.71	3.67105
2152.62	2.66347
2160.52	5.65591
2168.41	3.64835
2176.3	5.6408
2184.17	-3.36673
2192.03	8.62574
2199.89	0.618217
2207.73	5.61071
2215.56	0.603203
2223.39	5.59571
2231.21	0.588226
2239.01	3.58075
2246.81	5.57328
2254.6	5.56583
2262.38	-0.441624
2270.15	4.55093
2277.91	5.5435